task,trial_number,frequency,click_x_px,click_y_px,click_x_norm,click_y_norm,rt_ms,trial_type,trial_index,plugin_version,time_elapsed,participant_id,demographics,gender,age,hearing,hobbies
spatial_mapping,1,200,101.0,307.109375,0.25,0.7601717202970297,12762,html-keyboard-response,1,2.1.0,59964,P_20251211_080247,"{""gender"":""Vīrietis"",""age"":24,""hearing"":""Nē"",""hobbies"":[""Videospēles""]}",Vīrietis,24,Nē,['Videospēles']
spatial_mapping,2,4000,297.0,32.109375,0.7351485148514851,0.079478650990099,3802,html-keyboard-response,3,2.1.0,65781,P_20251211_080247,"{""gender"":""Vīrietis"",""age"":24,""hearing"":""Nē"",""hobbies"":[""Videospēles""]}",Vīrietis,24,Nē,['Videospēles']
spatial_mapping,3,4000,217.0,40.109375,0.5371287128712872,0.0992806311881188,2628,html-keyboard-response,5,2.1.0,70433,P_20251211_080247,"{""gender"":""Vīrietis"",""age"":24,""hearing"":""Nē"",""hobbies"":[""Videospēles""]}",Vīrietis,24,Nē,['Videospēles']
spatial_mapping,4,200,193.0,345.109375,0.4777227722772277,0.8542311262376238,2268,html-keyboard-response,7,2.1.0,74716,P_20251211_080247,"{""gender"":""Vīrietis"",""age"":24,""hearing"":""Nē"",""hobbies"":[""Videospēles""]}",Vīrietis,24,Nē,['Videospēles']
spatial_mapping,5,4000,113.0,29.109375,0.2797029702970297,0.0720529084158415,2987,html-keyboard-response,9,2.1.0,79717,P_20251211_080247,"{""gender"":""Vīrietis"",""age"":24,""hearing"":""Nē"",""hobbies"":[""Videospēles""]}",Vīrietis,24,Nē,['Videospēles']
spatial_mapping,6,1000,198.0,184.109375,0.4900990099009901,0.4557162747524752,4790,html-keyboard-response,11,2.1.0,86533,P_20251211_080247,"{""gender"":""Vīrietis"",""age"":24,""hearing"":""Nē"",""hobbies"":[""Videospēles""]}",Vīrietis,24,Nē,['Videospēles']
spatial_mapping,7,1000,231.0,194.109375,0.5717821782178217,0.48046875,2420,html-keyboard-response,13,2.1.0,90967,P_20251211_080247,"{""gender"":""Vīrietis"",""age"":24,""hearing"":""Nē"",""hobbies"":[""Videospēles""]}",Vīrietis,24,Nē,['Videospēles']
spatial_mapping,8,200,7.0,393.109375,0.0173267326732673,0.9730430074257426,2576,html-keyboard-response,15,2.1.0,95567,P_20251211_080247,"{""gender"":""Vīrietis"",""age"":24,""hearing"":""Nē"",""hobbies"":[""Videospēles""]}",Vīrietis,24,Nē,['Videospēles']
spatial_mapping,9,1000,352.0,249.109375,0.8712871287128713,0.6166073638613861,3426,html-keyboard-response,17,2.1.0,101009,P_20251211_080247,"{""gender"":""Vīrietis"",""age"":24,""hearing"":""Nē"",""hobbies"":[""Videospēles""]}",Vīrietis,24,Nē,['Videospēles']
spatial_mapping,1,200,197.0,308.5,0.4876237623762376,0.7636138613861386,6867,html-keyboard-response,1,2.1.0,570745,P_20251211_104347,"{""gender"":""Sieviete"",""age"":28,""hearing"":""Nē"",""hobbies"":[""Sports"",""Lasīšana"",""Videospēles""]}",Sieviete,28,Nē,"['Sports', 'Lasīšana', 'Videospēles']"
spatial_mapping,2,1000,195.0,152.5,0.4826732673267326,0.3774752475247525,6271,html-keyboard-response,3,2.1.0,579027,P_20251211_104347,"{""gender"":""Sieviete"",""age"":28,""hearing"":""Nē"",""hobbies"":[""Sports"",""Lasīšana"",""Videospēles""]}",Sieviete,28,Nē,"['Sports', 'Lasīšana', 'Videospēles']"
spatial_mapping,3,4000,194.0,95.5,0.4801980198019802,0.2363861386138613,3694,html-keyboard-response,5,2.1.0,584727,P_20251211_104347,"{""gender"":""Sieviete"",""age"":28,""hearing"":""Nē"",""hobbies"":[""Sports"",""Lasīšana"",""Videospēles""]}",Sieviete,28,Nē,"['Sports', 'Lasīšana', 'Videospēles']"
spatial_mapping,4,1000,193.0,185.5,0.4777227722772277,0.4591584158415842,8277,html-keyboard-response,7,2.1.0,595011,P_20251211_104347,"{""gender"":""Sieviete"",""age"":28,""hearing"":""Nē"",""hobbies"":[""Sports"",""Lasīšana"",""Videospēles""]}",Sieviete,28,Nē,"['Sports', 'Lasīšana', 'Videospēles']"
spatial_mapping,5,200,193.0,261.5,0.4777227722772277,0.6472772277227723,5244,html-keyboard-response,9,2.1.0,602260,P_20251211_104347,"{""gender"":""Sieviete"",""age"":28,""hearing"":""Nē"",""hobbies"":[""Sports"",""Lasīšana"",""Videospēles""]}",Sieviete,28,Nē,"['Sports', 'Lasīšana', 'Videospēles']"
spatial_mapping,6,200,193.0,261.5,0.4777227722772277,0.6472772277227723,2812,html-keyboard-response,11,2.1.0,607076,P_20251211_104347,"{""gender"":""Sieviete"",""age"":28,""hearing"":""Nē"",""hobbies"":[""Sports"",""Lasīšana"",""Videospēles""]}",Sieviete,28,Nē,"['Sports', 'Lasīšana', 'Videospēles']"
spatial_mapping,7,1000,192.0,184.5,0.4752475247524752,0.4566831683168317,4562,html-keyboard-response,13,2.1.0,613645,P_20251211_104347,"{""gender"":""Sieviete"",""age"":28,""hearing"":""Nē"",""hobbies"":[""Sports"",""Lasīšana"",""Videospēles""]}",Sieviete,28,Nē,"['Sports', 'Lasīšana', 'Videospēles']"
spatial_mapping,8,4000,190.0,114.5,0.4702970297029702,0.2834158415841584,3046,html-keyboard-response,15,2.1.0,618697,P_20251211_104347,"{""gender"":""Sieviete"",""age"":28,""hearing"":""Nē"",""hobbies"":[""Sports"",""Lasīšana"",""Videospēles""]}",Sieviete,28,Nē,"['Sports', 'Lasīšana', 'Videospēles']"
spatial_mapping,9,4000,190.0,99.5,0.4702970297029702,0.2462871287128712,2623,html-keyboard-response,17,2.1.0,623325,P_20251211_104347,"{""gender"":""Sieviete"",""age"":28,""hearing"":""Nē"",""hobbies"":[""Sports"",""Lasīšana"",""Videospēles""]}",Sieviete,28,Nē,"['Sports', 'Lasīšana', 'Videospēles']"
spatial_mapping,1,4000,189.5999755859375,40.59999084472656,0.4702380204507125,0.1006944186893518,11579,html-keyboard-response,1,2.1.0,36015,P_20251211_172427,"{""gender"":""Sieviete"",""age"":24,""hearing"":""Nē"",""hobbies"":[""Lasīšana"",""Māksla"",""Mūzika""]}",Sieviete,24,Nē,"['Lasīšana', 'Māksla', 'Mūzika']"
spatial_mapping,2,200,59.5999755859375,345.59999084472656,0.1478173952914829,0.8571428084860058,6299,html-keyboard-response,3,2.1.0,44484,P_20251211_172427,"{""gender"":""Sieviete"",""age"":24,""hearing"":""Nē"",""hobbies"":[""Lasīšana"",""Māksla"",""Mūzika""]}",Sieviete,24,Nē,"['Lasīšana', 'Māksla', 'Mūzika']"
spatial_mapping,3,4000,77.5999755859375,24.59999084472656,0.1924602510827609,0.0610118802082158,7708,html-keyboard-response,5,2.1.0,54363,P_20251211_172427,"{""gender"":""Sieviete"",""age"":24,""hearing"":""Nē"",""hobbies"":[""Lasīšana"",""Māksla"",""Mūzika""]}",Sieviete,24,Nē,"['Lasīšana', 'Māksla', 'Mūzika']"
spatial_mapping,4,1000,264.5999755859375,111.59999084472656,0.6562499195810373,0.2767856831993925,7917,html-keyboard-response,7,2.1.0,64462,P_20251211_172427,"{""gender"":""Sieviete"",""age"":24,""hearing"":""Nē"",""hobbies"":[""Lasīšana"",""Māksla"",""Mūzika""]}",Sieviete,24,Nē,"['Lasīšana', 'Māksla', 'Mūzika']"
spatial_mapping,5,1000,229.5999755859375,127.59999084472656,0.5694443666535524,0.3164682216805285,6052,html-keyboard-response,9,2.1.0,72689,P_20251211_172427,"{""gender"":""Sieviete"",""age"":24,""hearing"":""Nē"",""hobbies"":[""Lasīšana"",""Māksla"",""Mūzika""]}",Sieviete,24,Nē,"['Lasīšana', 'Māksla', 'Mūzika']"
spatial_mapping,6,200,283.5999755859375,277.59999084472656,0.7033729340273862,0.6884920199411779,7128,html-keyboard-response,11,2.1.0,81943,P_20251211_172427,"{""gender"":""Sieviete"",""age"":24,""hearing"":""Nē"",""hobbies"":[""Lasīšana"",""Māksla"",""Mūzika""]}",Sieviete,24,Nē,"['Lasīšana', 'Māksla', 'Mūzika']"
spatial_mapping,7,4000,272.5999755859375,65.59999084472656,0.6760911888216052,0.1626983850661267,8363,html-keyboard-response,13,2.1.0,92431,P_20251211_172427,"{""gender"":""Sieviete"",""age"":24,""hearing"":""Nē"",""hobbies"":[""Lasīšana"",""Māksla"",""Mūzika""]}",Sieviete,24,Nē,"['Lasīšana', 'Māksla', 'Mūzika']"
spatial_mapping,8,200,153.5999755859375,374.59999084472656,0.3809523088681567,0.9290674094830648,5088,html-keyboard-response,15,2.1.0,99661,P_20251211_172427,"{""gender"":""Sieviete"",""age"":24,""hearing"":""Nē"",""hobbies"":[""Lasīšana"",""Māksla"",""Mūzika""]}",Sieviete,24,Nē,"['Lasīšana', 'Māksla', 'Mūzika']"
spatial_mapping,9,1000,269.5999755859375,217.59999084472656,0.6686507128563922,0.5396825006369181,7253,html-keyboard-response,17,2.1.0,109037,P_20251211_172427,"{""gender"":""Sieviete"",""age"":24,""hearing"":""Nē"",""hobbies"":[""Lasīšana"",""Māksla"",""Mūzika""]}",Sieviete,24,Nē,"['Lasīšana', 'Māksla', 'Mūzika']"
spatial_mapping,1,200,206.0,342.5,0.5099009900990099,0.8477722772277227,7747,html-keyboard-response,1,2.1.0,52138,P_20251211_192845,"{""gender"":""Vīrietis"",""age"":28,""hearing"":""Nē"",""hobbies"":null}",Vīrietis,28,Nē,None
spatial_mapping,2,200,206.0,342.5,0.5099009900990099,0.8477722772277227,3374,html-keyboard-response,3,2.1.0,57521,P_20251211_192845,"{""gender"":""Vīrietis"",""age"":28,""hearing"":""Nē"",""hobbies"":null}",Vīrietis,28,Nē,None
spatial_mapping,3,1000,258.0,97.5,0.6386138613861386,0.2413366336633663,3791,html-keyboard-response,5,2.1.0,63322,P_20251211_192845,"{""gender"":""Vīrietis"",""age"":28,""hearing"":""Nē"",""hobbies"":null}",Vīrietis,28,Nē,None
spatial_mapping,4,4000,391.0,5.5,0.9678217821782178,0.0136138613861386,2049,html-keyboard-response,7,2.1.0,67377,P_20251211_192845,"{""gender"":""Vīrietis"",""age"":28,""hearing"":""Nē"",""hobbies"":null}",Vīrietis,28,Nē,None
spatial_mapping,5,4000,391.0,8.5,0.9678217821782178,0.021039603960396,1822,html-keyboard-response,9,2.1.0,71204,P_20251211_192845,"{""gender"":""Vīrietis"",""age"":28,""hearing"":""Nē"",""hobbies"":null}",Vīrietis,28,Nē,None
spatial_mapping,6,4000,389.0,10.5,0.9628712871287128,0.0259900990099009,1095,html-keyboard-response,11,2.1.0,74303,P_20251211_192845,"{""gender"":""Vīrietis"",""age"":28,""hearing"":""Nē"",""hobbies"":null}",Vīrietis,28,Nē,None
spatial_mapping,7,200,206.0,342.5,0.5099009900990099,0.8477722772277227,4577,html-keyboard-response,13,2.1.0,80887,P_20251211_192845,"{""gender"":""Vīrietis"",""age"":28,""hearing"":""Nē"",""hobbies"":null}",Vīrietis,28,Nē,None
spatial_mapping,8,1000,215.0,189.5,0.5321782178217822,0.469059405940594,2777,html-keyboard-response,15,2.1.0,85671,P_20251211_192845,"{""gender"":""Vīrietis"",""age"":28,""hearing"":""Nē"",""hobbies"":null}",Vīrietis,28,Nē,None
spatial_mapping,9,1000,199.0,184.5,0.4925742574257425,0.4566831683168317,1561,html-keyboard-response,17,2.1.0,89237,P_20251211_192845,"{""gender"":""Vīrietis"",""age"":28,""hearing"":""Nē"",""hobbies"":null}",Vīrietis,28,Nē,None
spatial_mapping,1,1000,15.61669921875,293.6000061035156,0.0387318917310232,0.7281745962665317,2645,html-keyboard-response,1,2.1.0,32335,P_20251212_220245,"{""gender"":""Vīrietis"",""age"":24,""hearing"":""Nē"",""hobbies"":[""Sports"",""Videospēles""]}",Vīrietis,24,Nē,"['Sports', 'Videospēles']"
spatial_mapping,2,4000,319.61669921875,139.60000610351562,0.7927001228726063,0.3462301633855982,2364,html-keyboard-response,3,2.1.0,36737,P_20251212_220245,"{""gender"":""Vīrietis"",""age"":24,""hearing"":""Nē"",""hobbies"":[""Sports"",""Videospēles""]}",Vīrietis,24,Nē,"['Sports', 'Videospēles']"
spatial_mapping,3,4000,179.61669921875,48.600006103515625,0.4454779111626667,0.1205357257741375,1959,html-keyboard-response,5,2.1.0,40707,P_20251212_220245,"{""gender"":""Vīrietis"",""age"":24,""hearing"":""Nē"",""hobbies"":[""Sports"",""Videospēles""]}",Vīrietis,24,Nē,"['Sports', 'Videospēles']"
spatial_mapping,4,1000,186.61669921875,368.6000061035156,0.4628390217481636,0.9141864953968564,1679,html-keyboard-response,7,2.1.0,44403,P_20251212_220245,"{""gender"":""Vīrietis"",""age"":24,""hearing"":""Nē"",""hobbies"":[""Sports"",""Videospēles""]}",Vīrietis,24,Nē,"['Sports', 'Videospēles']"
spatial_mapping,5,200,130.61669921875,381.6000061035156,0.3239501370641879,0.9464285579127794,2887,html-keyboard-response,9,2.1.0,49299,P_20251212_220245,"{""gender"":""Vīrietis"",""age"":24,""hearing"":""Nē"",""hobbies"":[""Sports"",""Videospēles""]}",Vīrietis,24,Nē,"['Sports', 'Videospēles']"
spatial_mapping,6,4000,197.61669921875,90.60000610351562,0.4901207669539446,0.2247023892871194,4386,html-keyboard-response,11,2.1.0,55691,P_20251212_220245,"{""gender"":""Vīrietis"",""age"":24,""hearing"":""Nē"",""hobbies"":[""Sports"",""Videospēles""]}",Vīrietis,24,Nē,"['Sports', 'Videospēles']"
spatial_mapping,7,200,188.61669921875,386.6000061035156,0.4677993390583057,0.9588293511881344,2302,html-keyboard-response,13,2.1.0,60011,P_20251212_220245,"{""gender"":""Vīrietis"",""age"":24,""hearing"":""Nē"",""hobbies"":[""Sports"",""Videospēles""]}",Vīrietis,24,Nē,"['Sports', 'Videospēles']"
spatial_mapping,8,200,193.61669921875,343.6000061035156,0.4802001323336606,0.8521825290200815,4179,html-keyboard-response,15,2.1.0,66200,P_20251212_220245,"{""gender"":""Vīrietis"",""age"":24,""hearing"":""Nē"",""hobbies"":[""Sports"",""Videospēles""]}",Vīrietis,24,Nē,"['Sports', 'Videospēles']"
spatial_mapping,9,1000,205.61669921875,176.60000610351562,0.5099620361945126,0.4379960336232251,2367,html-keyboard-response,17,2.1.0,70571,P_20251212_220245,"{""gender"":""Vīrietis"",""age"":24,""hearing"":""Nē"",""hobbies"":[""Sports"",""Videospēles""]}",Vīrietis,24,Nē,"['Sports', 'Videospēles']"
spatial_mapping,1,200,336.0089111328125,338.1696319580078,0.8328832423014766,0.8382391364666931,7807,html-keyboard-response,1,2.1.0,133473,P_20251213_094736,"{""gender"":""Vīrietis"",""age"":35,""hearing"":""Nē"",""hobbies"":[""other""],""hobbies-Comment"":""dejošana""}",Vīrietis,35,Nē,['other']
spatial_mapping,2,1000,54.0089111328125,322.1696319580078,0.1338747739332691,0.7985790815238161,3791,html-keyboard-response,3,2.1.0,139303,P_20251213_094736,"{""gender"":""Vīrietis"",""age"":35,""hearing"":""Nē"",""hobbies"":[""other""],""hobbies-Comment"":""dejošana""}",Vīrietis,35,Nē,['other']
spatial_mapping,3,200,356.0089111328125,349.1696319580078,0.8824583109800729,0.865505424239921,5471,html-keyboard-response,5,2.1.0,146790,P_20251213_094736,"{""gender"":""Vīrietis"",""age"":35,""hearing"":""Nē"",""hobbies"":[""other""],""hobbies-Comment"":""dejošana""}",Vīrietis,35,Nē,['other']
spatial_mapping,4,4000,334.0089111328125,54.16963195800781,0.8279257354336169,0.134273161230626,3479,html-keyboard-response,7,2.1.0,152318,P_20251213_094736,"{""gender"":""Vīrietis"",""age"":35,""hearing"":""Nē"",""hobbies"":[""other""],""hobbies-Comment"":""dejošana""}",Vīrietis,35,Nē,['other']
spatial_mapping,5,200,363.0089111328125,353.1696319580078,0.8998095850175816,0.8754204379756403,3495,html-keyboard-response,9,2.1.0,157834,P_20251213_094736,"{""gender"":""Vīrietis"",""age"":35,""hearing"":""Nē"",""hobbies"":[""other""],""hobbies-Comment"":""dejošana""}",Vīrietis,35,Nē,['other']
spatial_mapping,6,4000,312.0089111328125,58.16963195800781,0.7733931598871611,0.1441881749663452,3443,html-keyboard-response,11,2.1.0,163292,P_20251213_094736,"{""gender"":""Vīrietis"",""age"":35,""hearing"":""Nē"",""hobbies"":[""other""],""hobbies-Comment"":""dejošana""}",Vīrietis,35,Nē,['other']
spatial_mapping,7,1000,51.0089111328125,308.1696319580078,0.1264385136314796,0.7638765334487987,4743,html-keyboard-response,13,2.1.0,170048,P_20251213_094736,"{""gender"":""Vīrietis"",""age"":35,""hearing"":""Nē"",""hobbies"":[""other""],""hobbies-Comment"":""dejošana""}",Vīrietis,35,Nē,['other']
spatial_mapping,8,4000,366.0089111328125,35.16963195800781,0.907245845319371,0.0871768459859595,3484,html-keyboard-response,15,2.1.0,175553,P_20251213_094736,"{""gender"":""Vīrietis"",""age"":35,""hearing"":""Nē"",""hobbies"":[""other""],""hobbies-Comment"":""dejošana""}",Vīrietis,35,Nē,['other']
spatial_mapping,9,1000,27.0089111328125,341.1696319580078,0.0669484312171641,0.8456753967684826,4150,html-keyboard-response,17,2.1.0,181730,P_20251213_094736,"{""gender"":""Vīrietis"",""age"":35,""hearing"":""Nē"",""hobbies"":[""other""],""hobbies-Comment"":""dejošana""}",Vīrietis,35,Nē,['other']
spatial_mapping,1,4000,50.0089111328125,176.1696319580078,0.1239597601975498,0.4366810801700633,5621,html-keyboard-response,1,2.1.0,42569,P_20251213_095146,"{""gender"":""Sieviete"",""age"":22,""hearing"":""Nē"",""hobbies"":[""Lasīšana"",""Mūzika""]}",Sieviete,22,Nē,"['Lasīšana', 'Mūzika']"
spatial_mapping,2,200,194.0089111328125,327.1696319580078,0.480900254683443,0.8109728486934652,5499,html-keyboard-response,3,2.1.0,50115,P_20251213_095146,"{""gender"":""Sieviete"",""age"":22,""hearing"":""Nē"",""hobbies"":[""Lasīšana"",""Mūzika""]}",Sieviete,22,Nē,"['Lasīšana', 'Mūzika']"
spatial_mapping,3,1000,78.0089111328125,222.1696319580078,0.1933648563475846,0.5507037381308347,7670,html-keyboard-response,5,2.1.0,59817,P_20251213_095146,"{""gender"":""Sieviete"",""age"":22,""hearing"":""Nē"",""hobbies"":[""Lasīšana"",""Mūzika""]}",Sieviete,22,Nē,"['Lasīšana', 'Mūzika']"
spatial_mapping,4,1000,78.0089111328125,222.1696319580078,0.1933648563475846,0.5507037381308347,3085,html-keyboard-response,7,2.1.0,64932,P_20251213_095146,"{""gender"":""Sieviete"",""age"":22,""hearing"":""Nē"",""hobbies"":[""Lasīšana"",""Mūzika""]}",Sieviete,22,Nē,"['Lasīšana', 'Mūzika']"
spatial_mapping,5,200,106.0089111328125,309.1696319580078,0.2627699524976194,0.7663552868827285,4679,html-keyboard-response,9,2.1.0,71629,P_20251213_095146,"{""gender"":""Sieviete"",""age"":22,""hearing"":""Nē"",""hobbies"":[""Lasīšana"",""Mūzika""]}",Sieviete,22,Nē,"['Lasīšana', 'Mūzika']"
spatial_mapping,6,4000,67.0089111328125,195.1696319580078,0.1660985685743567,0.4837773954147297,4076,html-keyboard-response,11,2.1.0,77727,P_20251213_095146,"{""gender"":""Sieviete"",""age"":22,""hearing"":""Nē"",""hobbies"":[""Lasīšana"",""Mūzika""]}",Sieviete,22,Nē,"['Lasīšana', 'Mūzika']"
spatial_mapping,7,4000,118.0089111328125,142.1696319580078,0.2925149937047772,0.3524034634164496,6582,html-keyboard-response,13,2.1.0,86328,P_20251213_095146,"{""gender"":""Sieviete"",""age"":22,""hearing"":""Nē"",""hobbies"":[""Lasīšana"",""Mūzika""]}",Sieviete,22,Nē,"['Lasīšana', 'Mūzika']"
spatial_mapping,8,200,104.0089111328125,272.1696319580078,0.2578124456297598,0.6746414098273255,7536,html-keyboard-response,15,2.1.0,95893,P_20251213_095146,"{""gender"":""Sieviete"",""age"":22,""hearing"":""Nē"",""hobbies"":[""Lasīšana"",""Mūzika""]}",Sieviete,22,Nē,"['Lasīšana', 'Mūzika']"
spatial_mapping,9,1000,142.0089111328125,192.1696319580078,0.3520050761190927,0.4763411351129403,4508,html-keyboard-response,17,2.1.0,102433,P_20251213_095146,"{""gender"":""Sieviete"",""age"":22,""hearing"":""Nē"",""hobbies"":[""Lasīšana"",""Mūzika""]}",Sieviete,22,Nē,"['Lasīšana', 'Mūzika']"
spatial_mapping,1,200,35.0089111328125,392.1696319580078,0.0867784586886026,0.9720918218989032,5231,html-keyboard-response,1,2.1.0,56235,P_20251213_095411,"{""gender"":""Vīrietis"",""age"":35,""hearing"":""Nē"",""hobbies"":[""Mūzika"",""Sports""]}",Vīrietis,35,Nē,"['Mūzika', 'Sports']"
spatial_mapping,2,1000,320.0089111328125,43.16963195800781,0.7932231873585995,0.1070068734573981,3351,html-keyboard-response,3,2.1.0,61620,P_20251213_095411,"{""gender"":""Vīrietis"",""age"":35,""hearing"":""Nē"",""hobbies"":[""Mūzika"",""Sports""]}",Vīrietis,35,Nē,"['Mūzika', 'Sports']"
spatial_mapping,3,1000,275.0089111328125,93.1696319580078,0.6816792828317579,0.2309445451538887,2815,html-keyboard-response,5,2.1.0,66448,P_20251213_095411,"{""gender"":""Vīrietis"",""age"":35,""hearing"":""Nē"",""hobbies"":[""Mūzika"",""Sports""]}",Vīrietis,35,Nē,"['Mūzika', 'Sports']"
spatial_mapping,4,4000,245.0089111328125,6.1696319580078125,0.6073166798138635,0.0152929964019949,4546,html-keyboard-response,7,2.1.0,73004,P_20251213_095411,"{""gender"":""Vīrietis"",""age"":35,""hearing"":""Nē"",""hobbies"":[""Mūzika"",""Sports""]}",Vīrietis,35,Nē,"['Mūzika', 'Sports']"
spatial_mapping,5,1000,274.0089111328125,65.16963195800781,0.6792005293978282,0.161539449003854,3870,html-keyboard-response,9,2.1.0,78903,P_20251213_095411,"{""gender"":""Vīrietis"",""age"":35,""hearing"":""Nē"",""hobbies"":[""Mūzika"",""Sports""]}",Vīrietis,35,Nē,"['Mūzika', 'Sports']"
spatial_mapping,6,200,35.0089111328125,392.1696319580078,0.0867784586886026,0.9720918218989032,3071,html-keyboard-response,11,2.1.0,83990,P_20251213_095411,"{""gender"":""Vīrietis"",""age"":35,""hearing"":""Nē"",""hobbies"":[""Mūzika"",""Sports""]}",Vīrietis,35,Nē,"['Mūzika', 'Sports']"
spatial_mapping,7,4000,238.0089111328125,5.1696319580078125,0.5899654057763548,0.0128142429680651,3867,html-keyboard-response,13,2.1.0,89879,P_20251213_095411,"{""gender"":""Vīrietis"",""age"":35,""hearing"":""Nē"",""hobbies"":[""Mūzika"",""Sports""]}",Vīrietis,35,Nē,"['Mūzika', 'Sports']"
spatial_mapping,8,200,32.0089111328125,384.1696319580078,0.0793421983868132,0.9522617944274644,2749,html-keyboard-response,15,2.1.0,94644,P_20251213_095411,"{""gender"":""Vīrietis"",""age"":35,""hearing"":""Nē"",""hobbies"":[""Mūzika"",""Sports""]}",Vīrietis,35,Nē,"['Mūzika', 'Sports']"
spatial_mapping,9,4000,283.0089111328125,3.1696319580078125,0.7015093103031964,0.0078567361002055,3440,html-keyboard-response,17,2.1.0,100107,P_20251213_095411,"{""gender"":""Vīrietis"",""age"":35,""hearing"":""Nē"",""hobbies"":[""Mūzika"",""Sports""]}",Vīrietis,35,Nē,"['Mūzika', 'Sports']"
spatial_mapping,1,200,379.0089111328125,380.1696319580078,0.9394696399604584,0.9423467806917452,5918,html-keyboard-response,1,2.1.0,32044,P_20251213_095625,"{""gender"":""Sieviete"",""age"":34,""hearing"":""Nē"",""hobbies"":[""Lasīšana""]}",Sieviete,34,Nē,['Lasīšana']
spatial_mapping,2,4000,210.0089111328125,24.16963195800781,0.52056030962632,0.0599105582127316,2588,html-keyboard-response,3,2.1.0,36677,P_20251213_095625,"{""gender"":""Sieviete"",""age"":34,""hearing"":""Nē"",""hobbies"":[""Lasīšana""]}",Sieviete,34,Nē,['Lasīšana']
spatial_mapping,3,1000,370.0089111328125,159.1696319580078,0.9171608590550904,0.3945422717932564,3347,html-keyboard-response,5,2.1.0,42048,P_20251213_095625,"{""gender"":""Sieviete"",""age"":34,""hearing"":""Nē"",""hobbies"":[""Lasīšana""]}",Sieviete,34,Nē,['Lasīšana']
spatial_mapping,4,4000,191.0089111328125,19.16963195800781,0.4734639943816536,0.0475167910430825,2546,html-keyboard-response,7,2.1.0,46615,P_20251213_095625,"{""gender"":""Sieviete"",""age"":34,""hearing"":""Nē"",""hobbies"":[""Lasīšana""]}",Sieviete,34,Nē,['Lasīšana']
spatial_mapping,5,200,379.0089111328125,380.1696319580078,0.9394696399604584,0.9423467806917452,3425,html-keyboard-response,9,2.1.0,52057,P_20251213_095625,"{""gender"":""Sieviete"",""age"":34,""hearing"":""Nē"",""hobbies"":[""Lasīšana""]}",Sieviete,34,Nē,['Lasīšana']
spatial_mapping,6,1000,320.0089111328125,186.1696319580078,0.7932231873585995,0.4614686145093614,3205,html-keyboard-response,11,2.1.0,57277,P_20251213_095625,"{""gender"":""Sieviete"",""age"":34,""hearing"":""Nē"",""hobbies"":[""Lasīšana""]}",Sieviete,34,Nē,['Lasīšana']
spatial_mapping,7,200,379.0089111328125,380.1696319580078,0.9394696399604584,0.9423467806917452,3454,html-keyboard-response,13,2.1.0,62751,P_20251213_095625,"{""gender"":""Sieviete"",""age"":34,""hearing"":""Nē"",""hobbies"":[""Lasīšana""]}",Sieviete,34,Nē,['Lasīšana']
spatial_mapping,8,1000,324.0089111328125,192.1696319580078,0.8031382010943188,0.4763411351129403,2897,html-keyboard-response,15,2.1.0,67661,P_20251213_095625,"{""gender"":""Sieviete"",""age"":34,""hearing"":""Nē"",""hobbies"":[""Lasīšana""]}",Sieviete,34,Nē,['Lasīšana']
spatial_mapping,9,4000,232.0089111328125,47.16963195800781,0.5750928851727759,0.1169218871931173,2912,html-keyboard-response,17,2.1.0,72584,P_20251213_095625,"{""gender"":""Sieviete"",""age"":34,""hearing"":""Nē"",""hobbies"":[""Lasīšana""]}",Sieviete,34,Nē,['Lasīšana']
spatial_mapping,1,4000,306.0089111328125,50.16963195800781,0.7585206392835822,0.1243581474949067,3697,html-keyboard-response,1,2.1.0,35229,P_20251213_095816,"{""gender"":""Sieviete"",""age"":34,""hearing"":""Nē"",""hobbies"":[""Lasīšana""]}",Sieviete,34,Nē,['Lasīšana']
spatial_mapping,2,200,206.0,342.5,0.5099009900990099,0.8477722772277227,4169,html-keyboard-response,3,2.1.0,41421,P_20251213_095816,"{""gender"":""Sieviete"",""age"":34,""hearing"":""Nē"",""hobbies"":[""Lasīšana""]}",Sieviete,34,Nē,['Lasīšana']
spatial_mapping,3,1000,183.0089111328125,179.1696319580078,0.453633966910215,0.4441173404718527,3118,html-keyboard-response,5,2.1.0,46555,P_20251213_095816,"{""gender"":""Sieviete"",""age"":34,""hearing"":""Nē"",""hobbies"":[""Lasīšana""]}",Sieviete,34,Nē,['Lasīšana']
spatial_mapping,4,4000,306.0089111328125,50.16963195800781,0.7585206392835822,0.1243581474949067,2669,html-keyboard-response,7,2.1.0,51239,P_20251213_095816,"{""gender"":""Sieviete"",""age"":34,""hearing"":""Nē"",""hobbies"":[""Lasīšana""]}",Sieviete,34,Nē,['Lasīšana']
spatial_mapping,5,4000,306.0089111328125,50.16963195800781,0.7585206392835822,0.1243581474949067,3582,html-keyboard-response,9,2.1.0,56824,P_20251213_095816,"{""gender"":""Sieviete"",""age"":34,""hearing"":""Nē"",""hobbies"":[""Lasīšana""]}",Sieviete,34,Nē,['Lasīšana']
spatial_mapping,6,1000,183.0089111328125,179.1696319580078,0.453633966910215,0.4441173404718527,2817,html-keyboard-response,11,2.1.0,61662,P_20251213_095816,"{""gender"":""Sieviete"",""age"":34,""hearing"":""Nē"",""hobbies"":[""Lasīšana""]}",Sieviete,34,Nē,['Lasīšana']
spatial_mapping,7,200,206.0,342.5,0.5099009900990099,0.8477722772277227,2890,html-keyboard-response,13,2.1.0,66563,P_20251213_095816,"{""gender"":""Sieviete"",""age"":34,""hearing"":""Nē"",""hobbies"":[""Lasīšana""]}",Sieviete,34,Nē,['Lasīšana']
spatial_mapping,8,200,206.0,342.5,0.5099009900990099,0.8477722772277227,4722,html-keyboard-response,15,2.1.0,73305,P_20251213_095816,"{""gender"":""Sieviete"",""age"":34,""hearing"":""Nē"",""hobbies"":[""Lasīšana""]}",Sieviete,34,Nē,['Lasīšana']
spatial_mapping,9,1000,183.0089111328125,179.1696319580078,0.453633966910215,0.4441173404718527,2872,html-keyboard-response,17,2.1.0,78200,P_20251213_095816,"{""gender"":""Sieviete"",""age"":34,""hearing"":""Nē"",""hobbies"":[""Lasīšana""]}",Sieviete,34,Nē,['Lasīšana']
spatial_mapping,1,4000,190.0089111328125,4.1696319580078125,0.4709852409477237,0.0103354895341353,10099,html-keyboard-response,1,2.1.0,96542,P_20251213_100006,"{""gender"":""Sieviete"",""age"":33,""hearing"":""Nē"",""hobbies"":[""Sports""]}",Sieviete,33,Nē,['Sports']
spatial_mapping,2,200,218.0089111328125,347.1696319580078,0.5403903370977585,0.8605479173720615,6319,html-keyboard-response,3,2.1.0,104903,P_20251213_100006,"{""gender"":""Sieviete"",""age"":33,""hearing"":""Nē"",""hobbies"":[""Sports""]}",Sieviete,33,Nē,['Sports']
spatial_mapping,3,1000,258.0089111328125,103.1696319580078,0.6395404744549511,0.2557320794931869,6559,html-keyboard-response,5,2.1.0,113500,P_20251213_100006,"{""gender"":""Sieviete"",""age"":33,""hearing"":""Nē"",""hobbies"":[""Sports""]}",Sieviete,33,Nē,['Sports']
spatial_mapping,4,1000,258.0089111328125,103.1696319580078,0.6395404744549511,0.2557320794931869,2714,html-keyboard-response,7,2.1.0,118249,P_20251213_100006,"{""gender"":""Sieviete"",""age"":33,""hearing"":""Nē"",""hobbies"":[""Sports""]}",Sieviete,33,Nē,['Sports']
spatial_mapping,5,1000,107.0089111328125,78.16963195800781,0.2652487059315492,0.1937632436449415,4648,html-keyboard-response,9,2.1.0,124912,P_20251213_100006,"{""gender"":""Sieviete"",""age"":33,""hearing"":""Nē"",""hobbies"":[""Sports""]}",Sieviete,33,Nē,['Sports']
spatial_mapping,6,200,351.0089111328125,291.1696319580078,0.8700645438104238,0.7217377250719919,4559,html-keyboard-response,11,2.1.0,131504,P_20251213_100006,"{""gender"":""Sieviete"",""age"":33,""hearing"":""Nē"",""hobbies"":[""Sports""]}",Sieviete,33,Nē,['Sports']
spatial_mapping,7,4000,315.0089111328125,8.169631958007812,0.7808294201889505,0.0202505032698546,3574,html-keyboard-response,13,2.1.0,137093,P_20251213_100006,"{""gender"":""Sieviete"",""age"":33,""hearing"":""Nē"",""hobbies"":[""Sports""]}",Sieviete,33,Nē,['Sports']
spatial_mapping,8,200,159.0089111328125,318.1696319580078,0.3941438844958995,0.7886640677880968,3950,html-keyboard-response,15,2.1.0,143068,P_20251213_100006,"{""gender"":""Sieviete"",""age"":33,""hearing"":""Nē"",""hobbies"":[""Sports""]}",Sieviete,33,Nē,['Sports']
spatial_mapping,9,4000,68.0089111328125,8.169631958007812,0.1685773220082865,0.0202505032698546,2514,html-keyboard-response,17,2.1.0,147595,P_20251213_100006,"{""gender"":""Sieviete"",""age"":33,""hearing"":""Nē"",""hobbies"":[""Sports""]}",Sieviete,33,Nē,['Sports']
spatial_mapping,1,1000,212.0089111328125,180.1696319580078,0.5255178164941797,0.4465960939057825,3418,html-keyboard-response,1,2.1.0,38312,P_20251213_100320,"{""gender"":""Sieviete"",""age"":29,""hearing"":""Nē"",""hobbies"":[""Sports""]}",Sieviete,29,Nē,['Sports']
spatial_mapping,2,4000,383.0089111328125,12.169631958007812,0.949384653696178,0.0301655170055738,2303,html-keyboard-response,3,2.1.0,42639,P_20251213_100320,"{""gender"":""Sieviete"",""age"":29,""hearing"":""Nē"",""hobbies"":[""Sports""]}",Sieviete,29,Nē,['Sports']
spatial_mapping,3,200,74.0089111328125,399.1696319580078,0.1834498426118654,0.9894430959364118,2101,html-keyboard-response,5,2.1.0,46751,P_20251213_100320,"{""gender"":""Sieviete"",""age"":29,""hearing"":""Nē"",""hobbies"":[""Sports""]}",Sieviete,29,Nē,['Sports']
spatial_mapping,4,200,74.0089111328125,399.1696319580078,0.1834498426118654,0.9894430959364118,2577,html-keyboard-response,7,2.1.0,51355,P_20251213_100320,"{""gender"":""Sieviete"",""age"":29,""hearing"":""Nē"",""hobbies"":[""Sports""]}",Sieviete,29,Nē,['Sports']
spatial_mapping,5,1000,212.0089111328125,180.1696319580078,0.5255178164941797,0.4465960939057825,2578,html-keyboard-response,9,2.1.0,55950,P_20251213_100320,"{""gender"":""Sieviete"",""age"":29,""hearing"":""Nē"",""hobbies"":[""Sports""]}",Sieviete,29,Nē,['Sports']
spatial_mapping,6,200,288.0089111328125,379.1696319580078,0.7139030774728455,0.9398680272578156,2686,html-keyboard-response,11,2.1.0,60649,P_20251213_100320,"{""gender"":""Sieviete"",""age"":29,""hearing"":""Nē"",""hobbies"":[""Sports""]}",Sieviete,29,Nē,['Sports']
spatial_mapping,7,1000,212.0089111328125,180.1696319580078,0.5255178164941797,0.4465960939057825,2382,html-keyboard-response,13,2.1.0,65036,P_20251213_100320,"{""gender"":""Sieviete"",""age"":29,""hearing"":""Nē"",""hobbies"":[""Sports""]}",Sieviete,29,Nē,['Sports']
spatial_mapping,8,4000,393.0089111328125,7.1696319580078125,0.974172188035476,0.0177717498359247,3113,html-keyboard-response,15,2.1.0,70175,P_20251213_100320,"{""gender"":""Sieviete"",""age"":29,""hearing"":""Nē"",""hobbies"":[""Sports""]}",Sieviete,29,Nē,['Sports']
spatial_mapping,9,4000,387.0089111328125,10.169631958007812,0.9592996674318972,0.0252080101377142,2047,html-keyboard-response,17,2.1.0,74242,P_20251213_100320,"{""gender"":""Sieviete"",""age"":29,""hearing"":""Nē"",""hobbies"":[""Sports""]}",Sieviete,29,Nē,['Sports']
spatial_mapping,1,200,35.0089111328125,392.1696319580078,0.0867784586886026,0.9720918218989032,3632,html-keyboard-response,1,2.1.0,39570,P_20251213_100504,"{""gender"":""Sieviete"",""age"":25,""hearing"":""Nē"",""hobbies"":[""Sports""]}",Sieviete,25,Nē,['Sports']
spatial_mapping,2,4000,361.0089111328125,40.16963195800781,0.8948520781497219,0.0995706131556086,2739,html-keyboard-response,3,2.1.0,44343,P_20251213_100504,"{""gender"":""Sieviete"",""age"":25,""hearing"":""Nē"",""hobbies"":[""Sports""]}",Sieviete,25,Nē,['Sports']
spatial_mapping,3,200,195.0089111328125,384.1696319580078,0.4833790081173728,0.9522617944274644,3527,html-keyboard-response,5,2.1.0,49879,P_20251213_100504,"{""gender"":""Sieviete"",""age"":25,""hearing"":""Nē"",""hobbies"":[""Sports""]}",Sieviete,25,Nē,['Sports']
spatial_mapping,4,1000,195.0089111328125,200.1696319580078,0.4833790081173728,0.4961711625843788,3383,html-keyboard-response,7,2.1.0,55275,P_20251213_100504,"{""gender"":""Sieviete"",""age"":25,""hearing"":""Nē"",""hobbies"":[""Sports""]}",Sieviete,25,Nē,['Sports']
spatial_mapping,5,4000,280.0089111328125,86.16963195800781,0.694073050001407,0.21359327111638,3831,html-keyboard-response,9,2.1.0,61134,P_20251213_100504,"{""gender"":""Sieviete"",""age"":25,""hearing"":""Nē"",""hobbies"":[""Sports""]}",Sieviete,25,Nē,['Sports']
spatial_mapping,6,4000,280.0089111328125,86.16963195800781,0.694073050001407,0.21359327111638,2091,html-keyboard-response,11,2.1.0,65246,P_20251213_100504,"{""gender"":""Sieviete"",""age"":25,""hearing"":""Nē"",""hobbies"":[""Sports""]}",Sieviete,25,Nē,['Sports']
spatial_mapping,7,1000,186.0089111328125,181.1696319580078,0.4610702272120045,0.4490748473397123,2547,html-keyboard-response,13,2.1.0,69803,P_20251213_100504,"{""gender"":""Sieviete"",""age"":25,""hearing"":""Nē"",""hobbies"":[""Sports""]}",Sieviete,25,Nē,['Sports']
spatial_mapping,8,200,195.0089111328125,384.1696319580078,0.4833790081173728,0.9522617944274644,3736,html-keyboard-response,15,2.1.0,75559,P_20251213_100504,"{""gender"":""Sieviete"",""age"":25,""hearing"":""Nē"",""hobbies"":[""Sports""]}",Sieviete,25,Nē,['Sports']
spatial_mapping,9,1000,304.0089111328125,84.16963195800781,0.7535631324157225,0.2086357642485204,2693,html-keyboard-response,17,2.1.0,80290,P_20251213_100504,"{""gender"":""Sieviete"",""age"":25,""hearing"":""Nē"",""hobbies"":[""Sports""]}",Sieviete,25,Nē,['Sports']
spatial_mapping,1,1000,41.0089111328125,238.1696319580078,0.1016509792921815,0.5903637930737118,2611,html-keyboard-response,1,2.1.0,55817,P_20251213_100656,"{""gender"":""Sieviete"",""age"":32,""hearing"":""Nē"",""hobbies"":[""other""],""hobbies-Comment"":""būt dabā""}",Sieviete,32,Nē,['other']
spatial_mapping,2,4000,210.0089111328125,44.16963195800781,0.52056030962632,0.1094856268913279,4315,html-keyboard-response,3,2.1.0,62154,P_20251213_100656,"{""gender"":""Sieviete"",""age"":32,""hearing"":""Nē"",""hobbies"":[""other""],""hobbies-Comment"":""būt dabā""}",Sieviete,32,Nē,['other']
spatial_mapping,3,200,198.0089111328125,327.1696319580078,0.4908152684191623,0.8109728486934652,2921,html-keyboard-response,5,2.1.0,67095,P_20251213_100656,"{""gender"":""Sieviete"",""age"":32,""hearing"":""Nē"",""hobbies"":[""other""],""hobbies-Comment"":""būt dabā""}",Sieviete,32,Nē,['other']
spatial_mapping,4,1000,70.0089111328125,223.1696319580078,0.1735348288761461,0.5531824915647645,3752,html-keyboard-response,7,2.1.0,72866,P_20251213_100656,"{""gender"":""Sieviete"",""age"":32,""hearing"":""Nē"",""hobbies"":[""other""],""hobbies-Comment"":""būt dabā""}",Sieviete,32,Nē,['other']
spatial_mapping,5,4000,210.0089111328125,44.16963195800781,0.52056030962632,0.1094856268913279,2971,html-keyboard-response,9,2.1.0,77854,P_20251213_100656,"{""gender"":""Sieviete"",""age"":32,""hearing"":""Nē"",""hobbies"":[""other""],""hobbies-Comment"":""būt dabā""}",Sieviete,32,Nē,['other']
spatial_mapping,6,1000,50.0089111328125,223.1696319580078,0.1239597601975498,0.5531824915647645,4594,html-keyboard-response,11,2.1.0,84463,P_20251213_100656,"{""gender"":""Sieviete"",""age"":32,""hearing"":""Nē"",""hobbies"":[""other""],""hobbies-Comment"":""būt dabā""}",Sieviete,32,Nē,['other']
spatial_mapping,7,4000,203.0089111328125,31.16963195800781,0.5032090355888114,0.0772618322502403,2624,html-keyboard-response,13,2.1.0,89102,P_20251213_100656,"{""gender"":""Sieviete"",""age"":32,""hearing"":""Nē"",""hobbies"":[""other""],""hobbies-Comment"":""būt dabā""}",Sieviete,32,Nē,['other']
spatial_mapping,8,200,189.0089111328125,327.1696319580078,0.468506487513794,0.8109728486934652,3737,html-keyboard-response,15,2.1.0,94847,P_20251213_100656,"{""gender"":""Sieviete"",""age"":32,""hearing"":""Nē"",""hobbies"":[""other""],""hobbies-Comment"":""būt dabā""}",Sieviete,32,Nē,['other']
spatial_mapping,9,200,189.0089111328125,375.1696319580078,0.468506487513794,0.9299530135220964,2248,html-keyboard-response,17,2.1.0,99130,P_20251213_100656,"{""gender"":""Sieviete"",""age"":32,""hearing"":""Nē"",""hobbies"":[""other""],""hobbies-Comment"":""būt dabā""}",Sieviete,32,Nē,['other']
spatial_mapping,1,1000,199.0089111328125,161.1696319580078,0.4932940218530921,0.3994997786611161,4496,html-keyboard-response,1,2.1.0,94450,P_20251213_100918,"{""gender"":""Sieviete"",""age"":35,""hearing"":""Nē"",""hobbies"":[""other""],""hobbies-Comment"":""mācīties""}",Sieviete,35,Nē,['other']
spatial_mapping,2,4000,280.0089111328125,48.16963195800781,0.694073050001407,0.1194006406270471,2962,html-keyboard-response,3,2.1.0,99429,P_20251213_100918,"{""gender"":""Sieviete"",""age"":35,""hearing"":""Nē"",""hobbies"":[""other""],""hobbies-Comment"":""mācīties""}",Sieviete,35,Nē,['other']
spatial_mapping,3,1000,252.0089111328125,226.1696319580078,0.6246679538513722,0.560618751866554,4432,html-keyboard-response,5,2.1.0,105871,P_20251213_100918,"{""gender"":""Sieviete"",""age"":35,""hearing"":""Nē"",""hobbies"":[""other""],""hobbies-Comment"":""mācīties""}",Sieviete,35,Nē,['other']
spatial_mapping,4,4000,260.0089111328125,33.16963195800781,0.6444979813228108,0.0822193391180999,3446,html-keyboard-response,7,2.1.0,111340,P_20251213_100918,"{""gender"":""Sieviete"",""age"":35,""hearing"":""Nē"",""hobbies"":[""other""],""hobbies-Comment"":""mācīties""}",Sieviete,35,Nē,['other']
spatial_mapping,5,1000,248.0089111328125,223.1696319580078,0.614752940115653,0.5531824915647645,3359,html-keyboard-response,9,2.1.0,116714,P_20251213_100918,"{""gender"":""Sieviete"",""age"":35,""hearing"":""Nē"",""hobbies"":[""other""],""hobbies-Comment"":""mācīties""}",Sieviete,35,Nē,['other']
spatial_mapping,6,200,126.0089111328125,367.1696319580078,0.3123450211762157,0.9101229860506576,4015,html-keyboard-response,11,2.1.0,122740,P_20251213_100918,"{""gender"":""Sieviete"",""age"":35,""hearing"":""Nē"",""hobbies"":[""other""],""hobbies-Comment"":""mācīties""}",Sieviete,35,Nē,['other']
spatial_mapping,7,4000,283.0089111328125,59.16963195800781,0.7015093103031964,0.1466669284002751,3820,html-keyboard-response,13,2.1.0,128574,P_20251213_100918,"{""gender"":""Sieviete"",""age"":35,""hearing"":""Nē"",""hobbies"":[""other""],""hobbies-Comment"":""mācīties""}",Sieviete,35,Nē,['other']
spatial_mapping,8,200,96.0089111328125,357.1696319580078,0.2379824181583213,0.8853354517113595,3554,html-keyboard-response,15,2.1.0,134140,P_20251213_100918,"{""gender"":""Sieviete"",""age"":35,""hearing"":""Nē"",""hobbies"":[""other""],""hobbies-Comment"":""mācīties""}",Sieviete,35,Nē,['other']
spatial_mapping,9,200,80.0089111328125,360.1696319580078,0.1983223632154442,0.892771712013149,2822,html-keyboard-response,17,2.1.0,138979,P_20251213_100918,"{""gender"":""Sieviete"",""age"":35,""hearing"":""Nē"",""hobbies"":[""other""],""hobbies-Comment"":""mācīties""}",Sieviete,35,Nē,['other']
spatial_mapping,1,200,192.0089111328125,384.1696319580078,0.4759427478155834,0.9522617944274644,9511,html-keyboard-response,1,2.1.0,253883,P_20251213_101226,"{""gender"":""Sieviete"",""age"":30,""hearing"":""Nē"",""hobbies"":[""Mūzika"",""Sports"",""Māksla"",""Lasīšana""]}",Sieviete,30,Nē,"['Mūzika', 'Sports', 'Māksla', 'Lasīšana']"
spatial_mapping,2,1000,196.0089111328125,200.1696319580078,0.4858577615513026,0.4961711625843788,6699,html-keyboard-response,3,2.1.0,262634,P_20251213_101226,"{""gender"":""Sieviete"",""age"":30,""hearing"":""Nē"",""hobbies"":[""Mūzika"",""Sports"",""Māksla"",""Lasīšana""]}",Sieviete,30,Nē,"['Mūzika', 'Sports', 'Māksla', 'Lasīšana']"
spatial_mapping,3,4000,196.0089111328125,8.169631958007812,0.4858577615513026,0.0202505032698546,3724,html-keyboard-response,5,2.1.0,268402,P_20251213_101226,"{""gender"":""Sieviete"",""age"":30,""hearing"":""Nē"",""hobbies"":[""Mūzika"",""Sports"",""Māksla"",""Lasīšana""]}",Sieviete,30,Nē,"['Mūzika', 'Sports', 'Māksla', 'Lasīšana']"
spatial_mapping,4,1000,194.0089111328125,249.109375,0.480900254683443,0.6166073638613861,5156,html-keyboard-response,7,2.1.0,275589,P_20251213_101226,"{""gender"":""Sieviete"",""age"":30,""hearing"":""Nē"",""hobbies"":[""Mūzika"",""Sports"",""Māksla"",""Lasīšana""]}",Sieviete,30,Nē,"['Mūzika', 'Sports', 'Māksla', 'Lasīšana']"
spatial_mapping,5,4000,192.0089111328125,4.1696319580078125,0.4759427478155834,0.0103354895341353,3490,html-keyboard-response,9,2.1.0,281112,P_20251213_101226,"{""gender"":""Sieviete"",""age"":30,""hearing"":""Nē"",""hobbies"":[""Mūzika"",""Sports"",""Māksla"",""Lasīšana""]}",Sieviete,30,Nē,"['Mūzika', 'Sports', 'Māksla', 'Lasīšana']"
spatial_mapping,6,200,194.0089111328125,390.1696319580078,0.480900254683443,0.9671343150310434,3713,html-keyboard-response,11,2.1.0,286843,P_20251213_101226,"{""gender"":""Sieviete"",""age"":30,""hearing"":""Nē"",""hobbies"":[""Mūzika"",""Sports"",""Māksla"",""Lasīšana""]}",Sieviete,30,Nē,"['Mūzika', 'Sports', 'Māksla', 'Lasīšana']"
spatial_mapping,7,4000,201.0089111328125,4.1696319580078125,0.4982515287209517,0.0103354895341353,3905,html-keyboard-response,13,2.1.0,292767,P_20251213_101226,"{""gender"":""Sieviete"",""age"":30,""hearing"":""Nē"",""hobbies"":[""Mūzika"",""Sports"",""Māksla"",""Lasīšana""]}",Sieviete,30,Nē,"['Mūzika', 'Sports', 'Māksla', 'Lasīšana']"
spatial_mapping,8,200,195.0089111328125,387.1696319580078,0.4833790081173728,0.959698054729254,2508,html-keyboard-response,15,2.1.0,297294,P_20251213_101226,"{""gender"":""Sieviete"",""age"":30,""hearing"":""Nē"",""hobbies"":[""Mūzika"",""Sports"",""Māksla"",""Lasīšana""]}",Sieviete,30,Nē,"['Mūzika', 'Sports', 'Māksla', 'Lasīšana']"
spatial_mapping,9,1000,199.0089111328125,184.5,0.4932940218530921,0.4566831683168317,4092,html-keyboard-response,17,2.1.0,303404,P_20251213_101226,"{""gender"":""Sieviete"",""age"":30,""hearing"":""Nē"",""hobbies"":[""Mūzika"",""Sports"",""Māksla"",""Lasīšana""]}",Sieviete,30,Nē,"['Mūzika', 'Sports', 'Māksla', 'Lasīšana']"
spatial_mapping,1,1000,284.0,70.5,0.7029702970297029,0.1745049504950495,5062,html-keyboard-response,1,2.1.0,6388,P_20251213_102633,"{""gender"":""Sieviete"",""age"":27,""hearing"":""Nē"",""hobbies"":[""Mūzika"",""Sports""]}",Sieviete,27,Nē,"['Mūzika', 'Sports']"
spatial_mapping,2,4000,318.0,58.5,0.7871287128712872,0.1448019801980198,3594,html-keyboard-response,3,2.1.0,11988,P_20251213_102633,"{""gender"":""Sieviete"",""age"":27,""hearing"":""Nē"",""hobbies"":[""Mūzika"",""Sports""]}",Sieviete,27,Nē,"['Mūzika', 'Sports']"
spatial_mapping,3,200,19.0,387.5,0.047029702970297,0.959158415841584,3995,html-keyboard-response,5,2.1.0,17988,P_20251213_102633,"{""gender"":""Sieviete"",""age"":27,""hearing"":""Nē"",""hobbies"":[""Mūzika"",""Sports""]}",Sieviete,27,Nē,"['Mūzika', 'Sports']"
spatial_mapping,4,4000,318.0,58.5,0.7871287128712872,0.1448019801980198,2044,html-keyboard-response,7,2.1.0,22037,P_20251213_102633,"{""gender"":""Sieviete"",""age"":27,""hearing"":""Nē"",""hobbies"":[""Mūzika"",""Sports""]}",Sieviete,27,Nē,"['Mūzika', 'Sports']"
spatial_mapping,5,4000,314.0,63.5,0.7772277227722773,0.1571782178217821,2529,html-keyboard-response,9,2.1.0,26571,P_20251213_102633,"{""gender"":""Sieviete"",""age"":27,""hearing"":""Nē"",""hobbies"":[""Mūzika"",""Sports""]}",Sieviete,27,Nē,"['Mūzika', 'Sports']"
spatial_mapping,6,1000,200.0,207.5,0.495049504950495,0.5136138613861386,3077,html-keyboard-response,11,2.1.0,31654,P_20251213_102633,"{""gender"":""Sieviete"",""age"":27,""hearing"":""Nē"",""hobbies"":[""Mūzika"",""Sports""]}",Sieviete,27,Nē,"['Mūzika', 'Sports']"
spatial_mapping,7,1000,216.0,203.5,0.5346534653465347,0.5037128712871287,2195,html-keyboard-response,13,2.1.0,35854,P_20251213_102633,"{""gender"":""Sieviete"",""age"":27,""hearing"":""Nē"",""hobbies"":[""Mūzika"",""Sports""]}",Sieviete,27,Nē,"['Mūzika', 'Sports']"
spatial_mapping,8,200,181.0,355.5,0.448019801980198,0.879950495049505,3463,html-keyboard-response,15,2.1.0,41323,P_20251213_102633,"{""gender"":""Sieviete"",""age"":27,""hearing"":""Nē"",""hobbies"":[""Mūzika"",""Sports""]}",Sieviete,27,Nē,"['Mūzika', 'Sports']"
spatial_mapping,9,200,175.0,354.5,0.4331683168316831,0.8774752475247525,2062,html-keyboard-response,17,2.1.0,45392,P_20251213_102633,"{""gender"":""Sieviete"",""age"":27,""hearing"":""Nē"",""hobbies"":[""Mūzika"",""Sports""]}",Sieviete,27,Nē,"['Mūzika', 'Sports']"
spatial_mapping,1,1000,199.0089111328125,139.1696319580078,0.4932940218530921,0.3449672031146602,6610,html-keyboard-response,1,2.1.0,2089673,P_20251215_074300,"{""gender"":""Sieviete"",""age"":22,""hearing"":""Nē"",""hobbies"":[""Mūzika"",""Māksla"",""Videospēles"",""Lasīšana""]}",Sieviete,22,Nē,"['Mūzika', 'Māksla', 'Videospēles', 'Lasīšana']"
spatial_mapping,2,4000,110.0089111328125,10.169631958007812,0.2726849662333387,0.0252080101377142,4125,html-keyboard-response,3,2.1.0,2095838,P_20251215_074300,"{""gender"":""Sieviete"",""age"":22,""hearing"":""Nē"",""hobbies"":[""Mūzika"",""Māksla"",""Videospēles"",""Lasīšana""]}",Sieviete,22,Nē,"['Mūzika', 'Māksla', 'Videospēles', 'Lasīšana']"
spatial_mapping,3,1000,276.0089111328125,280.1696319580078,0.6841580362656877,0.6944714372987639,2979,html-keyboard-response,5,2.1.0,2100847,P_20251215_074300,"{""gender"":""Sieviete"",""age"":22,""hearing"":""Nē"",""hobbies"":[""Mūzika"",""Māksla"",""Videospēles"",""Lasīšana""]}",Sieviete,22,Nē,"['Mūzika', 'Māksla', 'Videospēles', 'Lasīšana']"
spatial_mapping,4,200,182.0089111328125,354.1696319580078,0.4511552134762853,0.8778991914095702,3361,html-keyboard-response,7,2.1.0,2106221,P_20251215_074300,"{""gender"":""Sieviete"",""age"":22,""hearing"":""Nē"",""hobbies"":[""Mūzika"",""Māksla"",""Videospēles"",""Lasīšana""]}",Sieviete,22,Nē,"['Mūzika', 'Māksla', 'Videospēles', 'Lasīšana']"
spatial_mapping,5,4000,198.0089111328125,41.16963195800781,0.4908152684191623,0.1020493665895384,4189,html-keyboard-response,9,2.1.0,2112439,P_20251215_074300,"{""gender"":""Sieviete"",""age"":22,""hearing"":""Nē"",""hobbies"":[""Mūzika"",""Māksla"",""Videospēles"",""Lasīšana""]}",Sieviete,22,Nē,"['Mūzika', 'Māksla', 'Videospēles', 'Lasīšana']"
spatial_mapping,6,200,123.0089111328125,320.1696319580078,0.3049087608744262,0.7936215746559565,4159,html-keyboard-response,11,2.1.0,2118612,P_20251215_074300,"{""gender"":""Sieviete"",""age"":22,""hearing"":""Nē"",""hobbies"":[""Mūzika"",""Māksla"",""Videospēles"",""Lasīšana""]}",Sieviete,22,Nē,"['Mūzika', 'Māksla', 'Videospēles', 'Lasīšana']"
spatial_mapping,7,200,131.0089111328125,299.1696319580078,0.3247387883458648,0.7415677525434303,3177,html-keyboard-response,13,2.1.0,2123822,P_20251215_074300,"{""gender"":""Sieviete"",""age"":22,""hearing"":""Nē"",""hobbies"":[""Mūzika"",""Māksla"",""Videospēles"",""Lasīšana""]}",Sieviete,22,Nē,"['Mūzika', 'Māksla', 'Videospēles', 'Lasīšana']"
spatial_mapping,8,1000,347.0089111328125,201.1696319580078,0.8601495300747045,0.4986499160183086,3686,html-keyboard-response,15,2.1.0,2129534,P_20251215_074300,"{""gender"":""Sieviete"",""age"":22,""hearing"":""Nē"",""hobbies"":[""Mūzika"",""Māksla"",""Videospēles"",""Lasīšana""]}",Sieviete,22,Nē,"['Mūzika', 'Māksla', 'Videospēles', 'Lasīšana']"
spatial_mapping,9,4000,311.0089111328125,53.16963195800781,0.7709144064532313,0.1317944077966962,3200,html-keyboard-response,17,2.1.0,2134761,P_20251215_074300,"{""gender"":""Sieviete"",""age"":22,""hearing"":""Nē"",""hobbies"":[""Mūzika"",""Māksla"",""Videospēles"",""Lasīšana""]}",Sieviete,22,Nē,"['Mūzika', 'Māksla', 'Videospēles', 'Lasīšana']"
spatial_mapping,1,4000,318.0089111328125,85.16963195800781,0.78826568049074,0.2111145176824502,3700,html-keyboard-response,1,2.1.0,35698,P_20251215_081927,"{""gender"":""Vīrietis"",""age"":22,""hearing"":""Nē"",""hobbies"":[""Videospēles""]}",Vīrietis,22,Nē,['Videospēles']
spatial_mapping,2,4000,318.0089111328125,85.16963195800781,0.78826568049074,0.2111145176824502,3487,html-keyboard-response,3,2.1.0,41304,P_20251215_081927,"{""gender"":""Vīrietis"",""age"":22,""hearing"":""Nē"",""hobbies"":[""Videospēles""]}",Vīrietis,22,Nē,['Videospēles']
spatial_mapping,3,1000,207.0089111328125,238.1696319580078,0.5131240493245306,0.5903637930737118,4724,html-keyboard-response,5,2.1.0,48049,P_20251215_081927,"{""gender"":""Vīrietis"",""age"":22,""hearing"":""Nē"",""hobbies"":[""Videospēles""]}",Vīrietis,22,Nē,['Videospēles']
spatial_mapping,4,200,207.0089111328125,238.1696319580078,0.5131240493245306,0.5903637930737118,3475,html-keyboard-response,7,2.1.0,53543,P_20251215_081927,"{""gender"":""Vīrietis"",""age"":22,""hearing"":""Nē"",""hobbies"":[""Videospēles""]}",Vīrietis,22,Nē,['Videospēles']
spatial_mapping,5,200,207.0089111328125,238.1696319580078,0.5131240493245306,0.5903637930737118,3124,html-keyboard-response,9,2.1.0,58689,P_20251215_081927,"{""gender"":""Vīrietis"",""age"":22,""hearing"":""Nē"",""hobbies"":[""Videospēles""]}",Vīrietis,22,Nē,['Videospēles']
spatial_mapping,6,4000,318.0089111328125,85.16963195800781,0.78826568049074,0.2111145176824502,3117,html-keyboard-response,11,2.1.0,63818,P_20251215_081927,"{""gender"":""Vīrietis"",""age"":22,""hearing"":""Nē"",""hobbies"":[""Videospēles""]}",Vīrietis,22,Nē,['Videospēles']
spatial_mapping,7,1000,287.0089111328125,140.1696319580078,0.7114243240389158,0.34744595654859,3704,html-keyboard-response,13,2.1.0,69537,P_20251215_081927,"{""gender"":""Vīrietis"",""age"":22,""hearing"":""Nē"",""hobbies"":[""Videospēles""]}",Vīrietis,22,Nē,['Videospēles']
spatial_mapping,8,1000,311.0089111328125,156.1696319580078,0.7709144064532313,0.387106011491467,3277,html-keyboard-response,15,2.1.0,74942,P_20251215_081927,"{""gender"":""Vīrietis"",""age"":22,""hearing"":""Nē"",""hobbies"":[""Videospēles""]}",Vīrietis,22,Nē,['Videospēles']
spatial_mapping,9,200,207.0089111328125,238.1696319580078,0.5131240493245306,0.5903637930737118,3734,html-keyboard-response,17,2.1.0,80704,P_20251215_081927,"{""gender"":""Vīrietis"",""age"":22,""hearing"":""Nē"",""hobbies"":[""Videospēles""]}",Vīrietis,22,Nē,['Videospēles']
spatial_mapping,1,1000,384.82220458984375,393.4666748046875,0.9535792113997668,0.974999979204019,27537,html-keyboard-response,1,2.1.0,51382,P_20251216_201636,"{""gender"":""Vīrietis"",""age"":26,""hearing"":""Nē"",""hobbies"":[""Sports"",""Videospēles"",""Mūzika""]}",Vīrietis,26,Nē,"['Sports', 'Videospēles', 'Mūzika']"
spatial_mapping,2,4000,92.82220458984376,45.4666748046875,0.2300109598600513,0.1126652136703855,19068,html-keyboard-response,3,2.1.0,72482,P_20251216_201636,"{""gender"":""Vīrietis"",""age"":26,""hearing"":""Nē"",""hobbies"":[""Sports"",""Videospēles"",""Mūzika""]}",Vīrietis,26,Nē,"['Sports', 'Videospēles', 'Mūzika']"
spatial_mapping,3,200,326.8222045898437,334.4666748046875,0.8098567504774946,0.8287995448175697,5448,html-keyboard-response,5,2.1.0,79964,P_20251216_201636,"{""gender"":""Vīrietis"",""age"":26,""hearing"":""Nē"",""hobbies"":[""Sports"",""Videospēles"",""Mūzika""]}",Vīrietis,26,Nē,"['Sports', 'Videospēles', 'Mūzika']"
spatial_mapping,4,4000,192.82220458984372,62.4666748046875,0.4778083062777621,0.1547907625613963,8697,html-keyboard-response,7,2.1.0,90707,P_20251216_201636,"{""gender"":""Vīrietis"",""age"":26,""hearing"":""Nē"",""hobbies"":[""Sports"",""Videospēles"",""Mūzika""]}",Vīrietis,26,Nē,"['Sports', 'Videospēles', 'Mūzika']"
spatial_mapping,5,200,198.82220458984372,358.4666748046875,0.4926761470628248,0.8882709079578203,3856,html-keyboard-response,9,2.1.0,96607,P_20251216_201636,"{""gender"":""Vīrietis"",""age"":26,""hearing"":""Nē"",""hobbies"":[""Sports"",""Videospēles"",""Mūzika""]}",Vīrietis,26,Nē,"['Sports', 'Videospēles', 'Mūzika']"
spatial_mapping,6,1000,341.8222045898437,135.4666748046875,0.8470263524401512,0.3356828254463252,4397,html-keyboard-response,11,2.1.0,103037,P_20251216_201636,"{""gender"":""Vīrietis"",""age"":26,""hearing"":""Nē"",""hobbies"":[""Sports"",""Videospēles"",""Mūzika""]}",Vīrietis,26,Nē,"['Sports', 'Videospēles', 'Mūzika']"
spatial_mapping,7,1000,350.8222045898437,165.4666748046875,0.8693281136177452,0.4100220293716384,3165,html-keyboard-response,13,2.1.0,108233,P_20251216_201636,"{""gender"":""Vīrietis"",""age"":26,""hearing"":""Nē"",""hobbies"":[""Sports"",""Videospēles"",""Mūzika""]}",Vīrietis,26,Nē,"['Sports', 'Videospēles', 'Mūzika']"
spatial_mapping,8,4000,225.82220458984372,122.4666748046875,0.5595814305956067,0.3034691704120228,3020,html-keyboard-response,15,2.1.0,113280,P_20251216_201636,"{""gender"":""Vīrietis"",""age"":26,""hearing"":""Nē"",""hobbies"":[""Sports"",""Videospēles"",""Mūzika""]}",Vīrietis,26,Nē,"['Sports', 'Videospēles', 'Mūzika']"
spatial_mapping,9,200,198.82220458984372,358.4666748046875,0.4926761470628248,0.8882709079578203,3560,html-keyboard-response,17,2.1.0,118877,P_20251216_201636,"{""gender"":""Vīrietis"",""age"":26,""hearing"":""Nē"",""hobbies"":[""Sports"",""Videospēles"",""Mūzika""]}",Vīrietis,26,Nē,"['Sports', 'Videospēles', 'Mūzika']"
spatial_mapping,1,1000,188.0089111328125,221.1696319580078,0.4660277340798641,0.548224984696905,3179,html-keyboard-response,1,2.1.0,12727,P_20251228_164843,"{""gender"":""Vīrietis"",""age"":22,""hearing"":""Nē"",""hobbies"":[""Sports""]}",Vīrietis,22,Nē,['Sports']
spatial_mapping,2,4000,272.0089111328125,64.16963195800781,0.6742430225299685,0.1590606955699241,2722,html-keyboard-response,3,2.1.0,17471,P_20251228_164843,"{""gender"":""Vīrietis"",""age"":22,""hearing"":""Nē"",""hobbies"":[""Sports""]}",Vīrietis,22,Nē,['Sports']
spatial_mapping,3,200,116.0089111328125,349.1696319580078,0.2875574868369175,0.865505424239921,2866,html-keyboard-response,5,2.1.0,22340,P_20251228_164843,"{""gender"":""Vīrietis"",""age"":22,""hearing"":""Nē"",""hobbies"":[""Sports""]}",Vīrietis,22,Nē,['Sports']
spatial_mapping,4,200,67.0089111328125,375.1696319580078,0.1660985685743567,0.9299530135220964,2625,html-keyboard-response,7,2.1.0,26989,P_20251228_164843,"{""gender"":""Vīrietis"",""age"":22,""hearing"":""Nē"",""hobbies"":[""Sports""]}",Vīrietis,22,Nē,['Sports']
spatial_mapping,5,4000,354.0089111328125,17.169631958007812,0.8775008041122132,0.0425592841752229,2418,html-keyboard-response,9,2.1.0,31422,P_20251228_164843,"{""gender"":""Vīrietis"",""age"":22,""hearing"":""Nē"",""hobbies"":[""Sports""]}",Vīrietis,22,Nē,['Sports']
spatial_mapping,6,200,131.0089111328125,378.1696319580078,0.3247387883458648,0.9373892738238856,2505,html-keyboard-response,11,2.1.0,35954,P_20251228_164843,"{""gender"":""Vīrietis"",""age"":22,""hearing"":""Nē"",""hobbies"":[""Sports""]}",Vīrietis,22,Nē,['Sports']
spatial_mapping,7,1000,228.0089111328125,238.1696319580078,0.5651778714370567,0.5903637930737118,3182,html-keyboard-response,13,2.1.0,41153,P_20251228_164843,"{""gender"":""Vīrietis"",""age"":22,""hearing"":""Nē"",""hobbies"":[""Sports""]}",Vīrietis,22,Nē,['Sports']
spatial_mapping,8,4000,273.0089111328125,45.16963195800781,0.6767217759638983,0.1119643803252577,4984,html-keyboard-response,15,2.1.0,48150,P_20251228_164843,"{""gender"":""Vīrietis"",""age"":22,""hearing"":""Nē"",""hobbies"":[""Sports""]}",Vīrietis,22,Nē,['Sports']
spatial_mapping,9,1000,187.0089111328125,196.1696319580078,0.4635489806459343,0.4862561488486596,3921,html-keyboard-response,17,2.1.0,54083,P_20251228_164843,"{""gender"":""Vīrietis"",""age"":22,""hearing"":""Nē"",""hobbies"":[""Sports""]}",Vīrietis,22,Nē,['Sports']
spatial_mapping,1,1000,204.0089111328125,184.1696319580078,0.5056877890227411,0.4565111076415018,5352,html-keyboard-response,1,2.1.0,11890,P_20251228_165020,"{""gender"":""Vīrietis"",""age"":26,""hearing"":""Nē"",""hobbies"":[""Māksla""]}",Vīrietis,26,Nē,['Māksla']
spatial_mapping,2,200,91.0089111328125,375.1696319580078,0.2255886509886722,0.9299530135220964,5107,html-keyboard-response,3,2.1.0,19040,P_20251228_165020,"{""gender"":""Vīrietis"",""age"":26,""hearing"":""Nē"",""hobbies"":[""Māksla""]}",Vīrietis,26,Nē,['Māksla']
spatial_mapping,3,4000,219.0089111328125,20.16963195800781,0.5428690905316884,0.0499955444770123,2382,html-keyboard-response,5,2.1.0,23452,P_20251228_165020,"{""gender"":""Vīrietis"",""age"":26,""hearing"":""Nē"",""hobbies"":[""Māksla""]}",Vīrietis,26,Nē,['Māksla']
spatial_mapping,4,1000,208.0089111328125,166.1696319580078,0.5156028027584604,0.4118935458307651,2771,html-keyboard-response,7,2.1.0,28240,P_20251228_165020,"{""gender"":""Vīrietis"",""age"":26,""hearing"":""Nē"",""hobbies"":[""Māksla""]}",Vīrietis,26,Nē,['Māksla']
spatial_mapping,5,200,88.0089111328125,382.1696319580078,0.2181523906868828,0.9473042875596048,2768,html-keyboard-response,9,2.1.0,33029,P_20251228_165020,"{""gender"":""Vīrietis"",""age"":26,""hearing"":""Nē"",""hobbies"":[""Māksla""]}",Vīrietis,26,Nē,['Māksla']
spatial_mapping,6,1000,201.0089111328125,184.1696319580078,0.4982515287209517,0.4565111076415018,2468,html-keyboard-response,11,2.1.0,37500,P_20251228_165020,"{""gender"":""Vīrietis"",""age"":26,""hearing"":""Nē"",""hobbies"":[""Māksla""]}",Vīrietis,26,Nē,['Māksla']
spatial_mapping,7,200,132.0089111328125,365.1696319580078,0.3272175417797945,0.905165479182798,2314,html-keyboard-response,13,2.1.0,41840,P_20251228_165020,"{""gender"":""Vīrietis"",""age"":26,""hearing"":""Nē"",""hobbies"":[""Māksla""]}",Vīrietis,26,Nē,['Māksla']
spatial_mapping,8,4000,356.0089111328125,14.169631958007812,0.8824583109800729,0.0351230238734334,3338,html-keyboard-response,15,2.1.0,47182,P_20251228_165020,"{""gender"":""Vīrietis"",""age"":26,""hearing"":""Nē"",""hobbies"":[""Māksla""]}",Vīrietis,26,Nē,['Māksla']
spatial_mapping,9,4000,309.0089111328125,23.16963195800781,0.7659568995853716,0.0574318047788018,1638,html-keyboard-response,17,2.1.0,50848,P_20251228_165020,"{""gender"":""Vīrietis"",""age"":26,""hearing"":""Nē"",""hobbies"":[""Māksla""]}",Vīrietis,26,Nē,['Māksla']
